Folder: pyGAPS/docs/examples/data/parsing/commercial/bel

Note: README.rst
========
Overview
========

pyGAPS (Python General Adsorption Processing Suite) is a framework for adsorption data analysis written in Python 3.

.. start-badges

.. list-table::
    :widths: 10 90
    :stub-columns: 1

    * - status
      - | |status|
        | |commits-since|
    * - docs
      - | |docs|
    * - license
      - | |license|
    * - tests
      - | |travis| |appveyor|
        | |codecov|
        | |requires|
    * - package
      - | |version| |wheel|
        | |supported-versions| |supported-implementations|

.. |status| image:: https://www.repostatus.org/badges/latest/wip.svg
    :target: https://www.repostatus.org/#wip
    :alt: Project Status: WIP â€“ Initial development is in progress, but there has not yet been a stable, usable release suitable for the public.

.. |commits-since| image:: https://img.shields.io/github/commits-since/pauliacomi/pygaps/v1.5.0.svg
    :alt: Commits since latest release
    :target: https://github.com/pauliacomi/pygaps/compare/v1.5.0...master

.. |docs| image:: https://readthedocs.org/projects/pygaps/badge/?style=flat
    :target: https://readthedocs.org/projects/pygaps
    :alt: Documentation Status

.. |license| image:: https://img.shields.io/badge/License-MIT-yellow.svg
    :target: https://opensource.org/licenses/MIT
    :alt: Project License

.. |travis| image:: https://travis-ci.org/pauliacomi/pyGAPS.svg?branch=master
    :alt: Travis-CI Build Status
    :target: https://travis-ci.org/pauliacomi/pyGAPS

.. |appveyor| image:: https://ci.appveyor.com/api/projects/status/github/pauliacomi/pygaps?branch=master&svg=true
    :alt: AppVeyor Build Status
    :target: https://ci.appveyor.com/project/pauliacomi/pygaps

.. |requires| image:: https://requires.io/github/pauliacomi/pyGAPS/requirements.svg?branch=master
    :alt: Requirements Status
    :target: https://requires.io/github/pauliacomi/pyGAPS/requirements/?branch=master

.. |codecov| image:: https://codecov.io/github/pauliacomi/pygaps/coverage.svg?branch=master
    :alt: Coverage Status
    :target: https://codecov.io/github/pauliacomi/pygaps

.. |version| image:: https://img.shields.io/pypi/v/pygaps.svg
    :alt: PyPI Package latest release
    :target: https://pypi.org/project/pygaps

.. |wheel| image:: https://img.shields.io/pypi/wheel/pygaps.svg
    :alt: PyPI Wheel
    :target: https://pypi.org/project/pygaps

.. |supported-versions| image:: https://img.shields.io/pypi/pyversions/pygaps.svg
    :alt: Supported versions
    :target: https://pypi.org/project/pygaps

.. |supported-implementations| image:: https://img.shields.io/pypi/implementation/pygaps.svg
    :alt: Supported implementations
    :target: https://pypi.org/project/pygaps


.. end-badges


Features
========

    - Advanced adsorption data import and manipulation
    - Routine analysis such as BET/Langmuir surface area, t-plot, alpha-s, Dubinin plots etc.
    - Pore size distribution calculations for mesopores (BJH, Dollimore-Heal)
    - Pore size distribution calculations

File: BF-010-DUT-13-CH4-190K-run1-export.csv
File Name,BF-010-DUT-13-CH4-190K-run1.DAT
Date of measurement,23.08.2019
Time of measurement,32:50:14
COMMENT1,
COMMENT2,
COMMENT3,
COMMENT4,
S/N,HP-102
Software version,1.4.7a-Bessy
Sample weight,0.0289,[g]
Standard volume,24.847,[cm^3]
Dead volume,15.669,[cm^3]
Equilibrium time,0,[SEC]
Adsorptive,CH4
Apparatus temperature,25.000,[C]
Adsorption temperature,190.00,[K]
Saturated vapor pressure,4518.6,[kPa]
Adsorptive cross section area,0.0000,[nm^2]
File name of wall adsorption,
Wall adsorption correction value1,0
Wall adsorption correction value2,0
Number of adsorption data point :,46
Number of desorption data point :,43
Adsorptive molecular weight,0.0000
Adsorptive surface area,0.0000,[nm^2]
Sample molecular weight,0.0000
Sample surface area,0.0000,[m^2 g^-1]

No,pi/ kPa,pe/ kPa,pe2/ kPa,p0/ kPa,p/p0,Va/cm^3(STP) g^-1
ADS
1,1.5917,0.8474,0.8466,4518.6,1.8753E-04,1.5621
2,29.598,17.003,17.009,4518.6,3.7628E-03,41.423
3,45.885,33.471,33.490,4518.6,7.4074E-03,76.857
4,59.542,48.458,48.487,4518.6,1.0724E-02,107.64
5,73.339,62.770,62.802,4518.6,1.3891E-02,136.88
6,85.198,75.706,75.749,4518.6,1.6754E-02,162.75
7,98.262,87.576,87.761,4518.6,1.9381E-02,187.90
8,108.36,98.938,98.739,4518.6,2.1896E-02,205.79
9,118.46,109.35,109.03,4518.6,2.4200E-02,227.71
10,186.47,150.78,150.55,4518.6,3.3370E-02,308.27
11,230.30,193.05,193.26,4518.6,4.2724E-02,395.62
12,263.69,230.75,231.13,4518.6,5.1068E-02,468.89
13,329.56,283.51,283.45,4518.6,6.2742E-02,570.93
14,382.13,336.12,336.10,4518.6,7.4385E-02,676.44
15,436.31,389.17,389.25,4518.6,8.6126E-02,787.42
16,489.66,442.49,442.86,4518.6,9.7927E-02,897.19
17,540.61,494.81,494.97,4518.6,0.1095,1000.1
18,594.15,547.68,548.11,4518.6,0.1212,1106.8
19,645.59,599.75,600.33,4518.6,0.1327,1210.8
20,697.26,651.80,652.29,4518.6,0.1442,1311.5
21,750.62,704.73,705.16,4518.6,0.1560,1412.7
22,800.40,755.86,756.32,4518.6,0.1673,1512.0
23,851.86,807.44,808.27,4518.6,0.1787,1608.8
24,904.08,859.65,860.09,4518.6,0.1902,1701.4
25,956.05,911.28,912.29,4518.6,0.2017,1800.9
26,1006.3,962.71,963.44,4518.6,0.2131,1889.5
27,1055.0,1012.9,1013.7,4518.6,0.2242,1975.3
28,1347.9,1196.5,1197.6,4518.6,0.2648,2288.9
29,1533.3,1381.6,1382.7,4518.6,0.3058,2598.4
30,1711.2,1562.2,1563.6,4518.6,0.3457,2908.7
31,1895.8,1745.1,1746.5,4518.6,0.3862,3222.5
32,2082.8,1929.4,1931.2,4518.6,0.4270,3550.8
33,2257.3,2107.3,2109.3,4518.6,0.4664,3879.0
34,2441.1,2287.6,2289.6,4518.6,0.5063,4222.6
35,2623.0,2467.5,2469.4,4518.6,0.5461,4585.8
36,2797.1,2642.8,2645.3,4518.6,0.5849,4962.7
37,2967.2,2813.4,2815.8,4518.6,0.6226,5351.5
38,3142.7,2985.3,2987.9,4518.6,0.6607,5764.2
39,3311.6,3153.7,3156.4,4518.6,0.6979,6194.5
40,3488.4,3324.7,3327.5,4518.6,0.7358,6658.1
41,3654.4,3489.9,3493.1,4518.6,0.7723,7154.9
42,3810.0,3646.9,3650.1,4518.6,0.8071,7675.6
43,3972.3,3802.8,3806.0,4518.6,0.8416,8248.9
44,4125.7,3952.4,3955.7,4518.6,0.8747,8878.1
45,4265.4,4091.8,4095.0,4518.6,0.9056,9557.5
46,4411.8,4227.1,4230.0,4518.6,0.9355,1.0343E+04
DES
1,3920.7,4094.9,4098.3,4518.6,0.9062,9591.7
2,3793.2,3958.4,3962.0,4518.6,0.8760,8925.9
3,3654.7,3815.7,3819.3,4518.6,0.8444,8318.3
4,3508.4,3666.9,3669.8,4518.6,0.8115,7759.7
5,3366.1,3518.0,3520.8,4518.6,0.7786,7255.7
6,3210.5,3362.6,3365.4,4518.6,0.7442,6779.9
7,3055.5,3205.1,3207.6,4518.6,0.7093,6334.1
8,2894.9,3043.6,3046.0,4518.6,0.6736,5913.3
9,2734.8,2881.4,2883.8,4518.6,0.6377,5514.2
10,2565.9,2714.1,2716.6,4518.6,0.6006,5127.2
11,2399.9,2546.4,2548.6,4518.6,0.5635,4754.8
12,2238.4,2380.6,2382.9,4518.6,0.5268,4410.9
13,2074.2,2214.2,2216.1,4518.6,0.4900,4085.4
14,1906.4,2045.8,2047.3,4518.6,0.4528,3773.9
15,1743.1,1880.4,1882.0,4518.6,0.4161,3471.3
16,1572.0,1711.6,1713.0,4518.6,0.3788,3167.8
17,1407.4,1544.5,1545.6,4518.6,0.3418,2877.8
18,1237.8,1375.8,1376.8,4518.6,0.3045,2591.5
19,1070.4,1207.7,1208.3,4518.6,0.2673,2310.0
20,905.80,1042.0,1043.0,4518.6,0.2306,2031.7
21,739.29,876.82,877.65,4518.6,0.1940,1740.0
22,774.49,821.12,821.77,4518.6,0.1817,1636.0
23,718.80,765.40,765.82,4518.6,0.1694,1534.0
24,661.70,708.81,709.77,4518.6,0.1569,1433.4
25,606.69,653.84,654.35,4518.6,0.1447,1323.2
26,551.13,598.50,598.91,4518.6,0.1325,1216.2
27,497.02,543.87,544.27,4518.6,0.1204,1110.6
28,442.39,489.77,489.93,4518.6,0.1084,999.90
29,388.58,435.65,436.05,4518.6,9.6412E-02,893.08
30,335.34,382.31,382.30,4518.6,8.4607E-02,782.51
31,260.53,317.16,317.22,4518.6,7.0189E-02,656.02
32,197.91,253.54,253.82,4518.6,5.6111E-02,530.15
33,139.08,192.41,192.58,4518.6,4.2583E-02,408.90
34,87.570,136.47,136.63,4518.6,3.0202E-02,298.03
35,34.164,82.194,81.828,4518.6,1.8190E-02,186.84
36,49.974,63.319,63.356,4518.6,1.4013E-02,155.52
37,32.357,45.471,45.496,4518.6,1.0063E-02,119.13
38,15.199,28.116,28.129,4518.6,6.2223E-03,82.623
39,1.8223E-02,12.135,12.140,4518.6,2.6857E-03,48.386
40,1.8588E-02,5.3166,5.3217,4518.6,1.1766E-03,2.5801
41,1.3911E-02,2.3731,2.3735,4518.6,5.2518E-04,20.039
42,1.1172E-02,1.0822,1.0828,4518.6,2.3949E-04,18.647
43,1.5115E-02,0.5116,0.5131,4518.6,1.1323E-04,17.674

File: RGE-343-DUT32-7dCO2_Nitrogen(BelMax).csv
File Name,RGE-343-DUT32-7dCO2_Nitrogen.DAT
Date of measurement,13/01/30
Time of measurement,39:37:15
COMMENT1,RGE-343_DUT-32-7d
COMMENT2,irena
COMMENT3,
COMMENT4,, Vacuum degree before measurement:1.060E-1Pa
Serial number,00218
Version,
Sample weight,1.8400E-02,[g]
Standard volume,27.698,[cm^3]
Dead volume,25.013,[cm^3]
Equilibrium time,0,[SEC]
Adsorptive,N2
Apparatus temperature,0.0000,[C]
Adsorption temperature,77.000,[K]
Saturated vapor pressure,101.33,[kPa]
Adsorptive cross section area,0.1620,[nm^2]
File name of wall adsorption,
Wall adsorption correction value1,
Wall adsorption correction value2,
Number of adsorption data point :,293
Number of desorption data point :,4

No,pi/kPa,pe/kPa,pe2/kPa,p0/kPa,p/p0,Va/cm^3(STP) g^-1
ADS
1,0.0000,3.1344E-02,0.0000,101.33,3.0933E-04,4.9793E-02
3,0.0000,5.1619E-02,0.0000,101.33,5.0941E-04,18.612
5,0.0000,6.8619E-02,0.0000,101.33,6.7718E-04,75.538
7,0.0000,0.1130,0.0000,101.33,1.1154E-03,93.007
9,0.0000,0.1615,0.0000,101.33,1.5934E-03,110.38
11,0.0000,0.2180,0.0000,101.33,2.1511E-03,127.79
13,0.0000,0.2745,0.0000,101.33,2.7088E-03,144.83
15,0.0000,0.3391,0.0000,101.33,3.3461E-03,161.89
17,0.0000,0.3915,0.0000,101.33,3.8639E-03,178.90
19,0.0000,0.4601,0.0000,101.33,4.5411E-03,195.68
21,0.0000,0.5207,0.0000,101.33,5.1387E-03,213.12
23,0.0000,0.5812,0.0000,101.33,5.7361E-03,231.01
25,0.0000,0.6418,0.0000,101.33,6.3337E-03,247.85
27,0.0000,0.7023,0.0000,101.33,6.9311E-03,265.01
29,0.0000,0.7588,0.0000,101.33,7.4888E-03,282.23
31,0.0000,0.8275,0.0000,101.33,8.1660E-03,298.92
33,0.0000,0.8840,0.0000,101.33,8.7237E-03,315.89
35,0.0000,0.9405,0.0000,101.33,9.2814E-03,333.19
37,0.0000,1.0010,0.0000,101.33,9.8786E-03,350.28
39,0.0000,1.0696,0.0000,101.33,1.0556E-02,367.42
41,0.0000,1.1342,0.0000,101.33,1.1193E-02,383.69
43,0.0000,1.1988,0.0000,101.33,1.1831E-02,398.78
45,0.0000,1.2637,0.0000,101.33,1.2471E-02,413.87
47,0.0000,1.3287,0.0000,101.33,1.3113E-02,428.80
49,0.0000,1.3977,0.0000,101.33,1.3794E-02,443.63
51,0.0000,1.4667,0.0000,101.33,1.4474E-02,458.63
53,0.0000,1.5358,0.0000,101.33,1.5156E-02,473.41
55,0.0000,1.6089,0.0000,101.33,1.5878E-02,488.00
57,0.0000,1.6860,0.0000,101.33,1.6639E-02,502.65
59,0.0000,1.7632,0.0000,101.33,1.7401E-02,517.60
61,0.0000,1.8403,0.0000,101.33,1.8161E-02,532.14
63,0.0000,1.9216,0.0000,101.33,1.8964E-02,546.20
65,0.0000,1.9987,0.0000,101.33,1.9725E-02,560.37
67,0.0000,2.0799,0.0000,101.33,2.0526E-02,574.66
69,0.0000,2.1733,0.0000,101.33,2.1448E-02,588.60
71,0.0000,2.2546,0.0000,101.33,2.2250E-02,602.51
73,0.0000,2.3520,0.0000,101.33,2.3211E-02,616.77
75,0.0000,2.4414,0.0000,101.33,2.4094E-02,630.86
77,0.0000,2.5388,0.0000,101.33,2.5055E-02,644.80
79,0.0000,2.6404,0.0000,101.33,2.6057E-02,658.65
81,0.0000,2.7338,0.0000,101.33,2.6979E-02,672.58
83,0.0000,2.8312,0.0000,101.33,2.7940E-02,685.94
85,0.0000,2.9409,0.0000,101.33,2.9023E-02,700.71
87,0.0000,3.0465,0.0000,101.33,3.0065E-02,714.25
89,0.0000,3.1561,0.0000,101.33,3.1147E-02,727.90
91,0.0000,3.2658,0.0000,101.33,3.2229E-02,742.77
93,0.0000,3.3795,0.0000,101.33,3.3351E-02,756.59
95,0.0000,3.4932,0.0000,101.33,3.4474E-02,770.10
97,0.0000,3.5947,0.0000,101.33,3.5475E-02,783.79
99,0.0000,3.7043,0.0000,101.33,3.6557E-02,797.92
101,0.0000,3.8140,0.0000,101.33,3.7639E-02,811.55
103,0.0000,3.9318,0.0000,101.33,3.8802E-02,825.70
105,0.0000,4.0333,0.0000,101.33,3.9804E-02,839.79
107,0.0000,4.1957,0.0000,101.33,4.1406E-02,861.03
109,0.0000,4.3013,0.0000,101.33,4.2448E-02,875.05
111,0.0000,4.4597,0.0000,101.33,4.4012E-02,896.55
113,0.0000,4.6099,0.0000,101.33,4.5494E-02,916.52
115,0.0000,4.7033,0.0000,101.33,4.6416E-02,930.16
117,0.0000,4.8617,0.0000,101.33,4.7979E-02,951.38
119,0.0000,5.0160,0.0000,101.33,4.9502E-02,971.95
121,0.0000,5.1703,0.0000,101.33,5.1024E-02,992.33
123,0.0000,5.3328,0.0000,101.33,5.2628E-02,1012.4
125,0.0000,5.5074,0.0000,101.33,5.4351E-02,1032.2
127,0.0000,5.6861,0.0000,101.33,5.6115E-02,1051.8
129,0.0000,5.8891,0.0000,101.33,5.8118E-02,1071.5
131,0.0000,6.0313,0.0000,101.33,5.9521E-02,1084.8
133,0.0000,6.2424,0.0000,101.33,6.1605E-02,1103.9
135,0.0000,6.4089,0.0000,101.33,6.3248E-02,1116.9
137,0.0000,7.8790,0.0000,101.33,7.7756E-02,1214.6
139,0.0000,8.0780,0.0000,101.33,7.9720E-02,1227.2
141,0.0000,8.3582,0.0000,101.33,8.2485E-02,1245.4
143,0.0000,8.6303,0.0000,101.33,8.5170E-02,1264.6
145,0.0000,8.8902,0.0000,101.33,8.7735E-02,1283.7
147,0.0000,9.1663,0.0000,101.33,9.0460E-02,1302.7
149,0.0000,9.4628,0.0000,101.33,9.3386E-02,1321.5
151,0.0000,9.6902,0.0000,101.33,9.5630E-02,1334.3
153,0.0000,10.052,0.0000,101.33,9.9201E-02,1351.9
155,0.0000,10.344,0.0000,101.33,0.1021,1364.2
157,0.0000,10.665,0.0000,101.33,0.1053,1376.8
159,0.0000,10.982,0.0000,101.33,0.1084,1389.1
161,0.0000,11.335,0.0000,101.33,0.1119,1401.2
163,0.0000,11.692,0.0000,101.33,0.1154,1413.4
165,0.0000,12.046,0.0000,101.33,0.1189,1426.3
167,0.0000,12.415,0.0000,101.33,0.1225,1439.0
169,0.0000,12.777,0.0000,101.33,0.1261,1452.3
171,0.0000,13.170,0.0000,101.33,0.1300,1466.0
173,0.0000,13.577,0.0000,101.33,0.1340,1483.1
175,0.0000,14.019,0.0000,101.33,0.1383,1504.0
177,0.0000,14.433,0.0000,101.33,0.1424,1526.0
179,0.0000,14.876,0.0000,101.33,0.1468,1546.8
181,0.0000,15.355,0.0000,101.33,0.1515,1569.1
183,0.0000,15.855,0.0000,101.33,0.1565,1591.7
185,0.0000,16.306,0.0000,101.33,0.1609,1614.0
187,0.0000,16.821,0.0000,101.33,0.1660,1645.1
189,0.0000,17.382,0.0000,101.33,0.1715,1675.4
191,0.0000,17.877,0.0000,101.33,0.1764,1692.6
193,0.0000,18.450,0.0000,101.33,0.1821,1708.2
195,0.0000,19.014,0.0000,101.33,0.1876,1723.8
197,0.0000,19.664,0.0000,101.33,0.1941,1745.0
199,0.0000,20.228,0.0000,101.33,0.1996,1797.0
201,0.0000,20.890,0.0000,101.33,0.2062,1899.2
203,0.0000,21.532,0.0000,101.33,0.2125,1927.6
205,0.0000,22.214,0.0000,101.33,0.2192,1935.5
207,0.0000,22.913,0.0000,101.33,0.2261,1940.2
209,0.0000,23.623,0.0000,101.33,0.2331,1945.0
211,0.0000,24.375,0.0000,101.33,0.2406,1949.2
213,0.0000,25.122,0.0000,101.33,0.2479,1953.5
215,0.0000,25.910,0.0000,101.33,0.2557,1958.0
217,0.0000,26.738,0.0000,101.33,0.2639,1961.7
219,0.0000,27.575,0.0000,101.33,0.2721,1965.5
221,0.0000,28.428,0.0000,101.33,0.2805,1969.2
223,0.0000,29.313,0.0000,101.33,0.2893,1973.0
225,0.0000,30.218,0.0000,101.33,0.2982,1976.8
227,0.0000,31.173,0.0000,101.33,0.3076,1980.4
229,0.0000,32.156,0.0000,101.33,0.3173,1983.9
231,0.0000,33.142,0.0000,101.33,0.3271,1987.6
233,0.0000,34.162,0.0000,101.33,0.3371,1990.7
235,0.0000,35.242,0.0000,101.33,0.3478,1994.0
237,0.0000,36.355,0.0000,101.33,0.3588,1997.1
239,0.0000,37.471,0.0000,101.33,0.3698,2000.3
241,0.0000,38.645,0.0000,101.33,0.3814,2003.6
243,0.0000,39.847,0.0000,101.33,0.3932,2006.6
245,0.0000,41.098,0.0000,101.33,0.4056,2010.0
247,0.0000,42.377,0.0000,101.33,0.4182,2012.8
249,0.0000,43.717,0.0000,101.33,0.4314,2015.4
251,0.0000,45.065,0.0000,101.33,0.4447,2018.3
253,0.0000,46.470,0.0000,101.33,0.4586,2021.4
255,0.0000,47.965,0.0000,101.33,0.4734,2023.5
257,0.0000,49.459,0.0000,101.33,0.4881,2025.2
259,0.0000,50.929,0.0000,101.33,0.5026,2027.3
261,0.0000,52.688,0.0000,101.33,0.5200,2026.8
263,0.0000,55.230,0.0000,101.33,0.5451,2009.7
265,0.0000,62.816,0.0000,101.33,0.6199,1938.9
267,0.0000,66.727,0.0000,101.33,0.6585,1896.3
269,0.0000,68.522,0.0000,101.33,0.6762,1891.3
271,0.0000,70.751,0.0000,101.33,0.6982,1887.7
273,0.0000,72.952,0.0000,101.33,0.7199,1878.7
275,0.0000,75.385,0.0000,101.33,0.7440,1875.4
277,0.0000,77.557,0.0000,101.33,0.7654,1866.7
279,0.0000,79.750,0.0000,101.33,0.7870,1862.8
281,0.0000,82.414,0.0000,101.33,0.8133,1857.3
283,0.0000,85.200,0.0000,101.33,0.8408,1839.9
285,0.0000,87.547,0.0000,101.33,0.8640,1830.4
287,0.0000,90.552,0.0000,101.33,0.8936,1820.6
289,0.0000,93.488,0.0000,101.33,0.9226,1805.5
291,0.0000,96.120,0.0000,101.33,0.9486,1785.9
293,0.0000,99.442,0.0000,101.33,0.9814,1764.3
DES
1,0.0000,100.51,0.0000,101.33,0.9919,1640.0
2,0.0000,101.40,0.0000,101.33,1.0007,1528.2
3,0.0000,100.28,0.0000,101.33,0.9896,1416.0
4,0.0000,97.395,0.0000,101.33,0.9612,1307.5