Folder: pyGAPS/docs/examples/data/parsing/aif

Note: README.rst
========
Overview
========

pyGAPS (Python General Adsorption Processing Suite) is a framework for adsorption data analysis written in Python 3.

.. start-badges

.. list-table::
    :widths: 10 90
    :stub-columns: 1

    * - status
      - | |status|
        | |commits-since|
    * - docs
      - | |docs|
    * - license
      - | |license|
    * - tests
      - | |travis| |appveyor|
        | |codecov|
        | |requires|
    * - package
      - | |version| |wheel|
        | |supported-versions| |supported-implementations|

.. |status| image:: https://www.repostatus.org/badges/latest/wip.svg
    :target: https://www.repostatus.org/#wip
    :alt: Project Status: WIP â€“ Initial development is in progress, but there has not yet been a stable, usable release suitable for the public.

.. |commits-since| image:: https://img.shields.io/github/commits-since/pauliacomi/pygaps/v1.5.0.svg
    :alt: Commits since latest release
    :target: https://github.com/pauliacomi/pygaps/compare/v1.5.0...master

.. |docs| image:: https://readthedocs.org/projects/pygaps/badge/?style=flat
    :target: https://readthedocs.org/projects/pygaps
    :alt: Documentation Status

.. |license| image:: https://img.shields.io/badge/License-MIT-yellow.svg
    :target: https://opensource.org/licenses/MIT
    :alt: Project License

.. |travis| image:: https://travis-ci.org/pauliacomi/pyGAPS.svg?branch=master
    :alt: Travis-CI Build Status
    :target: https://travis-ci.org/pauliacomi/pyGAPS

.. |appveyor| image:: https://ci.appveyor.com/api/projects/status/github/pauliacomi/pygaps?branch=master&svg=true
    :alt: AppVeyor Build Status
    :target: https://ci.appveyor.com/project/pauliacomi/pygaps

.. |requires| image:: https://requires.io/github/pauliacomi/pyGAPS/requirements.svg?branch=master
    :alt: Requirements Status
    :target: https://requires.io/github/pauliacomi/pyGAPS/requirements/?branch=master

.. |codecov| image:: https://codecov.io/github/pauliacomi/pygaps/coverage.svg?branch=master
    :alt: Coverage Status
    :target: https://codecov.io/github/pauliacomi/pygaps

.. |version| image:: https://img.shields.io/pypi/v/pygaps.svg
    :alt: PyPI Package latest release
    :target: https://pypi.org/project/pygaps

.. |wheel| image:: https://img.shields.io/pypi/wheel/pygaps.svg
    :alt: PyPI Wheel
    :target: https://pypi.org/project/pygaps

.. |supported-versions| image:: https://img.shields.io/pypi/pyversions/pygaps.svg
    :alt: Supported versions
    :target: https://pypi.org/project/pygaps

.. |supported-implementations| image:: https://img.shields.io/pypi/implementation/pygaps.svg
    :alt: Supported implementations
    :target: https://pypi.org/project/pygaps


.. end-badges


Features
========

    - Advanced adsorption data import and manipulation
    - Routine analysis such as BET/Langmuir surface area, t-plot, alpha-s, Dubinin plots etc.
    - Pore size distribution calculations for mesopores (BJH, Dollimore-Heal)
    - Pore size distribution calculations

File: ar_test_77k.aif
data_data_raw2aifv005
_audit_aif_version 1.0
_exptl_operator 'Volodymyr'
_exptl_date 2020-06-03T00:00:00
_exptl_instrument 'BEL 00218'
_exptl_adsorptive Ar
_exptl_temperature 87.00
_exptl_sample_mass 0.14320
_sample_id 'aus der BOX'
_sample_material_id 'unknown'
_units_temperature K
_units_pressure kPa
_units_mass g
_units_loading 'ml(STP) g-1'

loop_
_adsorp_pressure
_adsorp_p0
_adsorp_amount
0.00012621 101.3 0.00010258
0.00036169 101.3 0.1277
0.00051271 101.3 0.25735
0.00065335 101.3 0.38481
0.00079512 101.3 0.51136
0.00093801 101.3 0.63789
0.0010922 101.3 0.7648
0.0020781 101.3 1.4186
0.0047582 101.3 2.932
0.0076859 101.3 4.4476
0.010666 101.3 5.9556
0.030263 101.3 16.024
0.048555 101.3 26.061
0.065348 101.3 36.088
0.075344 101.3 43.195
0.084489 101.3 50.292
0.093028 101.3 57.417
0.10088 101.3 64.58
0.10869 101.3 71.85
0.12649 101.3 89.689
0.14131 101.3 107.23
0.1545 101.3 124.73
0.16773 101.3 142.27
0.18149 101.3 159.83
0.19707 101.3 177.4
0.21556 101.3 194.95
0.24065 101.3 212.39
0.27723 101.3 229.9
0.33717 101.3 247.3
0.41575 101.3 261.16
0.51024 101.3 271.56
0.6002 101.3 278.63
0.71768 101.3 285.67
0.79372 101.3 289.32
0.87704 101.3 292.96
0.96878 101.3 296.58
1.069 101.3 300.19
1.1801 101.3 303.78
1.2814 101.3 307.43
1.4076 101.3 311.04
1.5501 101.3 314.67
1.7007 101.3 318.17
1.8513 101.3 321.71
2.0426 101.3 325.19
2.2421 101.3 328.7
2.4863 101.3 332.14
2.759 101.3 335.55
3.0684 101.3 338.86
3.4388 101.3 341.96
3.8866 101.3 345.07
4.3873 101.3 347.91
4.9816 101.3 350.64
5.6736 101.3 353.22
6.4837 101.3 355.58
7.3955 101.3 357.72
8.405 101.3 359.69
9.5529 101.3 361.49
10.811 101.3 363.17
11.885 101.3 364.43
12.789 101.3 365.33
13.953 101.3 366.45
14.955 101.3 367.31
15.94 101.3 368.12
16.966 101.3 368.9
18.073 101.3 369.66
19.241 101.3 370.44
20.495 101.3 371.2
21.875 101.3 372.02
23.242 101.3 372.8
24.777 101.3 373.54
26.389 101.3 374.33
28.111 101.3 375.16
29.971 101.3 375.98
31.941 101.3 376.82
34.156 101.3 377.75
36.7 101.3 378.73
39.448 101.3 379.77
42.419 101.3 380.83
45.602 101.3 382.02
49.058 101.3 383.37
52.807 101.3 384.72
56.833 101.3 386.19
59.129 101.3 387.13
61.388 101.3 387.96
63.692 101.3 388.88
66.082 101.3 389.87
68.561 101.3 390.89
71.166 101.3 391.96
73.812 101.3 393.16
76.612 101.3 394.45
79.466 101.3 395.98
82.437 101.3 397.66
85.499 101.3 399.59
88.649 101.3 401.83
91.918 101.3 404.55
95.252 101.3 407.83
98.643 101.3 411.91
100.63 101.3 415.18

loop_
_desorp_pressure
_desorp_p0
_desorp_amount
97.678 101.3 412.38
95.533 101.3 410.38
92.048 101.3 407.82
88.421 101.3 405.53
84.916 101.3 403.58
81.546 101.3 401.94
78.359 101.3 400.44
75.289 101.3 399.22
72.326 101.3 398.08
69.513 101.3 396.96
66.782 101.3 396.05
64.156 101.3 395.17
61.645 101.3 394.33
59.235 101.3 393.56
54.867 101.3 392.2
50.662 101.3 390.84
47.495 101.3 387.67
45.517 101.3 384.85
43.225 101.3 383.43
39.875 101.3 382.01
36.72 101.3 380.76
33.814 101.3 379.65
31.152 101.3 378.58
28.685 101.3 377.57
26.405 101.3 376.57
23.462 101.3 375.17
20.735 101.3 373.74
18.284 101.3 372.32
16.115 101.3 370.84
14.185 101.3 369.36
12.081 101.3 367.47
10.229 101.3 365.4
8.6452 101.3 363.18
7.4973 101.3 361.23
6.5854 101.3 359.26
5.7184 101.3 356.89
5.0142 101.3 354.55
4.3792 101.3 351.82
3.8663 101.3 349.11
3.4714 101.3 346.51
3.162 101.3 344.09
2.9137 101.3 341.8
2.7102 101.3 339.63
2.2543 101.3 333.89
1.8676 101.3 327.51
1.249 101.3 311.89
0.82888 101.3 296.43
0.56022 101.3 281.41
0.40394 101.3 266.17
0.31697 101.3 251.06
0.26509 101.3 235.96
0.23163 101.3 220.8

File: dmof_C2H6_298k.aif
data_data_raw2aifv005
_audit_aif_version 1.0
_exptl_operator 'single gas'
_exptl_date 2019-08-19T00:00:00
_exptl_instrument 'BEL VC-05'
_exptl_adsorptive C2H6
_exptl_temperature 298.15
_exptl_sample_mass 0.817
_sample_id '[Zn2(tm-bdc)2(dabco)]'
_sample_material_id 'DMOF'
_units_temperature K
_units_pressure kPa
_units_mass g
_units_loading 'cm^3(STP) g^-1'

loop_
_adsorp_pressure
_adsorp_p0
_adsorp_amount
0.0405 3928.0 0.3878
1.7808 3928.0 16.157
3.816 3928.0 31.706
6.1866 3928.0 47.107
9.0845 3928.0 61.697
13.119 3928.0 75.729
19.271 3928.0 88.438
28.872 3928.0 98.684
43.095 3928.0 105.75
60.838 3928.0 110.1
81.553 3928.0 112.86
104.33 3928.0 114.63
151.96 3928.0 116.7
201.02 3928.0 117.87
249.14 3928.0 118.56
297.6 3928.0 119.04
343.34 3928.0 119.39
385.74 3928.0 119.63
425.91 3928.0 119.81
463.43 3928.0 119.95
498.47 3928.0 120.07
531.73 3928.0 120.16
562.18 3928.0 120.25
591.87 3928.0 120.28
619.17 3928.0 120.34
644.25 3928.0 120.38
668.02 3928.0 120.41
690.27 3928.0 120.42
710.91 3928.0 120.45
730.58 3928.0 120.48
748.82 3928.0 120.49
765.32 3928.0 120.51
780.97 3928.0 120.53
795.76 3928.0 120.54
809.58 3928.0 120.55
822.65 3928.0 120.56
834.92 3928.0 120.56
846.39 3928.0 120.58
857.18 3928.0 120.6
867.42 3928.0 120.61
877.44 3928.0 120.63
886.65 3928.0 120.63
940.73 3928.0 120.61
994.02 3928.0 120.58
1045.6 3928.0 120.56
1096.7 3928.0 120.52
1146.5 3928.0 120.48
1195.0 3928.0 120.41
1242.7 3928.0 120.38
1288.9 3928.0 120.32
1339.0 3928.0 120.24
1389.0 3928.0 120.14
1438.9 3928.0 120.06
1489.5 3928.0 119.97
1540.0 3928.0 119.86
1590.4 3928.0 119.73
1640.6 3928.0 119.61
1691.0 3928.0 119.49
1741.2 3928.0 119.32
1791.4 3928.0 119.26
1841.6 3928.0 119.09
1892.1 3928.0 118.91
1942.1 3928.0 118.77
1992.5 3928.0 118.58
2042.7 3928.0 118.36
2092.6 3928.0 118.2
2142.5 3928.0 118.02
2192.8 3928.0 117.83
2243.3 3928.0 117.56
2293.4 3928.0 117.36
2343.7 3928.0 117.15
2394.1 3928.0 116.9
2444.4 3928.0 116.62
2494.4 3928.0 116.34
2544.4 3928.0 116.12
2594.3 3928.0 115.88
2644.4 3928.0 115.63
2694.5 3928.0 115.32
2744.7 3928.0 115.02
2794.6 3928.0 114.71
2844.7 3928.0 114.37
2894.8 3928.0 114.02
2944.9 3928.0 113.61
2995.0 3928.0 113.22
3045.0 3928.0 112.77

File: dut-8_etoh_298k.aif
data_data_raw2aifv005
_audit_aif_version 1.0
_exptl_operator 'Leila'
_exptl_date 2020-10-19T00:00:00
_exptl_instrument 'BEL 00348'
_exptl_adsorptive C2H5OH
_exptl_temperature 298.00
_exptl_sample_mass 0.02460
_sample_id 'LA-133_DUT-8(Zn)_isp_cp_EtOH_298K'
_sample_material_id 'DUT-8'
_units_temperature K
_units_pressure kPa
_units_mass g
_units_loading 'ml(STP) g-1'

loop_
_adsorp_pressure
_adsorp_p0
_adsorp_amount
0.0019945 7.7 -0.0078034
0.23801 7.7 1.1631
0.59687 7.7 1.871
1.0656 7.7 2.5434
1.9405 7.7 3.5961
2.9711 7.7 4.7
4.2908 7.7 6.3256
5.7032 7.7 9.4354
6.0951 7.7 39.44
6.1793 7.7 69.495
6.2789 7.7 98.08
6.3927 7.7 125.39
6.511 7.7 151.08
6.6346 7.7 175.23
6.8001 7.7 203.45
6.9745 7.7 229.77
7.129 7.7 253.96
7.255 7.7 276.27
7.4351 7.7 296.53

loop_
_desorp_pressure
_desorp_p0
_desorp_amount
6.9111 7.7 293.6
5.8796 7.7 286.96
4.9299 7.7 279.73
4.1721 7.7 271.25
3.4163 7.7 262.46
2.8374 7.7 255.44
2.3344 7.7 247.89
1.9328 7.7 240.05
1.61 7.7 233.55
1.3136 7.7 227.95
1.0705 7.7 218.16
0.98202 7.7 213.9
0.8743 7.7 206.13
0.7434 7.7 195.96
0.71286 7.7 184.21
0.64378 7.7 172.98
0.58136 7.7 162.96
0.55368 7.7 151.59
0.52315 7.7 140.46
0.48497 7.7 130.4
0.43684 7.7 118.87
0.39802 7.7 111.96
0.36784 7.7 108.85
0.33544 7.7 106.01
0.29902 7.7 96.902
0.27728 7.7 85.95
0.26424 7.7 81.422
0.23607 7.7 74.2
0.21067 7.7 68.737
0.186 7.7 63.949
0.16694 7.7 60.421
0.14644 7.7 56.705
0.13148 7.7 53.981
0.11844 7.7 51.563
0.10471 7.7 49.002