Folder: pyGAPS/docs/files

Note: docs/files/isotherm.json
{
    "file_version": "2.0",

    "material": "HKUST-1(Cu)",
    "material_batch": "KRICT",
    "adsorbate": "CO2",
    "temperature": 303.0,

    "pressure_mode" : "absolute",
    "pressure_unit" : "bar",
    "material_basis" : "mass",
    "material_unit" : "g",
    "loading_basis" : "molar",
    "loading_unit" : "mmol",

    "iso_type": "calorimetry",
    "date": "2010-05-21 00:00:00",
    "instrument": "device1",
    "activation_temperature": 150.0,
    "user": "PI",
    "project": "ACRONYM",
    "comment": "a comment",

    "isotherm_data": [
        {
            "enthalpy": "28.7879686051",
            "loading": "0.762328237035",
            "pressure": "0.155838709677"
        },
        {
            "enthalpy": "28.7609392637",
            "loading": "1.53334900386",
            "pressure": "0.325938709677"
        },
        {
            "enthalpy": "28.749976751",
            "loading": "2.49757265501",
            "pressure": "0.554438709677"
        },
        {
            "enthalpy": "28.8481697142",
            "loading": "3.47012103282",
            "pressure": "0.807238709677"
        },
        {
            "enthalpy": "28.9629352",
            "loading": "4.25550607359",
            "pressure": "1.03393870968"
        },
        {
            "enthalpy": "28.8488689145",
            "loading": "4.93536780519",
            "pressure": "1.25153870968"
        },
        {
            "enthalpy": "28.7363563209",
            "loading": "5.71257320765",
            "pressure": "1.53033870968"
        },
        {
            "enthalpy": "28.5766309989",
            "loading": "6.39700776403",
            "pressure": "1.80973870968"
        },
        {
            "enthalpy": "28.5366503282",
            "loading": "6.97389987774",
            "pressure": "2.07673870968"
        },
        {
            "enthalpy": "28.970042714",
            "loading": "9.12173999444",
            "pressure": "3.45743870968"
        },
        {
            "enthalpy": "29.791154046",
            "loading": "10.7964298573",
            "pressure": "5.36133870968"
        },
        {
            "enthalpy": "31.492626289",
            "loading": "11.5264390801",
            "pressure": "6.74743870968"
        },
        {
            "enthalpy": "32.9810363992",
            "loading": "12.356451494",
            "pressure": "9.17463870968"
        },
        {
            "enthalpy": "39.6552951515",
            "loading": "12.6572985072",
            "pressure": "10.6609387097"
        },
        {
            "enthalpy": "35.1655813292",
            "loading": "12.9310244796",
            "pressure": "12.1094387097"
        },
        {
            "enthalpy": "30.4872904337",
            "loading": "13.4715688623",
            "pressure": "15.1416387097"
        },
        {
            "enthalpy": "25.0111492948",
            "loading": "13.778726163",
            "pressure": "16.8738387097"
        },
        {
            "enthalpy": "22

Note: README.rst
========
Overview
========

pyGAPS (Python General Adsorption Processing Suite) is a framework for adsorption data analysis written in Python 3.

.. start-badges

.. list-table::
    :widths: 10 90
    :stub-columns: 1

    * - status
      - | |status|
        | |commits-since|
    * - docs
      - | |docs|
    * - license
      - | |license|
    * - tests
      - | |travis| |appveyor|
        | |codecov|
        | |requires|
    * - package
      - | |version| |wheel|
        | |supported-versions| |supported-implementations|

.. |status| image:: https://www.repostatus.org/badges/latest/wip.svg
    :target: https://www.repostatus.org/#wip
    :alt: Project Status: WIP â€“ Initial development is in progress, but there has not yet been a stable, usable release suitable for the public.

.. |commits-since| image:: https://img.shields.io/github/commits-since/pauliacomi/pygaps/v1.5.0.svg
    :alt: Commits since latest release
    :target: https://github.com/pauliacomi/pygaps/compare/v1.5.0...master

.. |docs| image:: https://readthedocs.org/projects/pygaps/badge/?style=flat
    :target: https://readthedocs.org/projects/pygaps
    :alt: Documentation Status

.. |license| image:: https://img.shields.io/badge/License-MIT-yellow.svg
    :target: https://opensource.org/licenses/MIT
    :alt: Project License

.. |travis| image:: https://travis-ci.org/pauliacomi/pyGAPS.svg?branch=master
    :alt: Travis-CI Build Status
    :target: https://travis-ci.org/pauliacomi/pyGAPS

.. |appveyor| image:: https://ci.appveyor.com/api/projects/status/github/pauliacomi/pygaps?branch=master&svg=true
    :alt: AppVeyor Build Status
    :target: https://ci.appveyor.com/project/pauliacomi/pygaps

.. |requires| image:: https://requires.io/github/pauliacomi/pyGAPS/requirements.svg?branch=master
    :alt: Requirements Status
    :target: https://requires.io/github/pauliacomi/pyGAPS/requirements/?branch=master

.. |codecov| image:: https://codecov.io/github/pauliacomi/pygaps/coverage.svg?branch=master
    :alt: Coverage Status
    :target: https://codecov.io/github/pauliacomi/pygaps

.. |version| image:: https://img.shields.io/pypi/v/pygaps.svg
    :alt: PyPI Package latest release
    :target: https://pypi.org/project/pygaps

.. |wheel| image:: https://img.shields.io/pypi/wheel/pygaps.svg
    :alt: PyPI Wheel
    :target: https://pypi.org/project/pygaps

.. |supported-versions| image:: https://img.shields.io/pypi/pyversions/pygaps.svg
    :alt: Supported versions
    :target: https://pypi.org/project/pygaps

.. |supported-implementations| image:: https://img.shields.io/pypi/implementation/pygaps.svg
    :alt: Supported implementations
    :target: https://pypi.org/project/pygaps


.. end-badges


Features
========

    - Advanced adsorption data import and manipulation
    - Routine analysis such as BET/Langmuir surface area, t-plot, alpha-s, Dubinin plots etc.
    - Pore size distribution calculations for mesopores (BJH, Dollimore-Heal)
    - Pore size distribution calculations

File: isotherm.aif
data_830a707e2c95c8db400979a9cba7c92d
_audit_aif_version 1.0
_audit_creation_method pyGAPS
_exptl_adsorptive 'carbon dioxide'
_exptl_temperature 303.0
_sample_material_id 'HKUST-1(Cu)'
_exptl_operator 'PI'
_exptl_date '2010-05-21 00:00:00'
_exptl_instrument 'device1'
_exptl_activation_temperature '150.0'
_sample_id 'KRICT'
_units_temperature K
_units_pressure bar
_units_loading mmol/g
_pygaps_iso_type 'calorimetry'
_pygaps_project 'ACRONYM'
_pygaps_comment 'a comment'

loop_
_adsorp_pressure
_adsorp_amount
_adsorp_enthalpy
0.15584 0.76233 28.788
0.32594 1.5333 28.761
0.55444 2.4976 28.75
0.80724 3.4701 28.848
1.0339 4.2555 28.963
1.2515 4.9354 28.849
1.5303 5.7126 28.736
1.8097 6.397 28.577
2.0767 6.9739 28.537
3.4574 9.1217 28.97
5.3613 10.796 29.791
6.7474 11.526 31.493
9.1746 12.356 32.981
10.661 12.657 39.655
12.109 12.931 35.166
15.142 13.472 30.487
16.874 13.779 25.011
18.419 14.059 22.062
20.188 14.386 20.186
24.68 15.003 20.186

loop_
_desorp_pressure
_desorp_amount
_desorp_enthalpy
22.197 14.938 20.186
18.272 14.714 20.186
14.975 14.404 20.186
12.236 14.023 20.186
9.3094 13.404 20.186
6.7259 12.531 20.186
4.4989 11.199 20.186